word,colour,condition,correct_resp,thisN,thisTrialN,thisRepN,key_resp.keys,key_resp.corr,key_resp.rt,key_resp.duration,trials.thisRepN,trials.thisTrialN,trials.thisN,trials.thisIndex,thisRow.t,notes,Welcome.started,text_2.started,key_resp_2.started,Welcome.stopped,key_resp_2.keys,key_resp_2.rt,key_resp_2.duration,trial.started,fixation.started,fixation.stopped,key_resp.started,text_4.started,trial.stopped,trials.key_resp.keys,trials.key_resp.corr,trials.key_resp.rt,trials.key_resp.duration,Thank_You.started,text_3.started,key_resp_3.started,Thank_You.stopped,key_resp_3.keys,key_resp_3.rt,key_resp_3.duration,participant,session,Age,Gender,date,expName,expVersion,psychopyVersion,frameRate,expStart
RED,red,c,r,2,2,0,r,1,0.7821574,None,0,2,2,1,6.8852187,,,,,,,,,6.8699362,6.8852187,7.8851496,7.8684155,7.8684155,8.6519563,r,1,0.7821574,None,,,,,,,,1001,1,21,Man,2025-08-24_18h58.14.180,StroopEffect,,2025.1.1,60.02844148,2025-08-24 18h58.25.110302 +0530
BLUE,blue,c,b,3,3,0,b,1,0.8596642,None,0,3,3,2,8.6683427,,,,,,,,,8.6535129,8.6683427,9.6686039,9.6518963,9.6518963,10.5195745,b,1,0.8596642,None,,,,,,,,1001,1,21,Man,2025-08-24_18h58.14.180,StroopEffect,,2025.1.1,60.02844148,2025-08-24 18h58.25.110302 +0530
BLUE,blue,c,b,4,0,1,b,1,0.4272268,None,1,0,4,2,10.5355811,,,,,,,,,10.5204554,10.5355811,11.5353086,11.5184867,11.5184867,11.9519894,b,1,0.4272268,None,,,,,,,,1001,1,21,Man,2025-08-24_18h58.14.180,StroopEffect,,2025.1.1,60.02844148,2025-08-24 18h58.25.110302 +0530
RED,red,c,r,7,3,1,r,1,0.7892791,None,1,3,7,1,15.3187981,,,,,,,,,15.3036551,15.3187981,16.3188489,16.301956,16.301956,17.1028133,r,1,0.7892791,None,,,,,,,,1001,1,21,Man,2025-08-24_18h58.14.180,StroopEffect,,2025.1.1,60.02844148,2025-08-24 18h58.25.110302 +0530
BLUE,blue,c,b,8,0,2,b,1,0.3703626,None,2,0,8,2,17.1185459,,,,,,,,,17.1072132,17.1185459,18.1186321,18.1186321,18.1186321,18.5026682,b,1,0.3703626,None,,,,,,,,1001,1,21,Man,2025-08-24_18h58.14.180,StroopEffect,,2025.1.1,60.02844148,2025-08-24 18h58.25.110302 +0530
RED,red,c,r,10,2,2,r,1,0.8096195,None,2,2,10,1,19.9350654,,,,,,,,,19.9203322,19.9350654,20.9352493,20.9187724,20.9187724,21.7357003,r,1,0.8096195,None,,,,,,,,1001,1,21,Man,2025-08-24_18h58.14.180,StroopEffect,,2025.1.1,60.02844148,2025-08-24 18h58.25.110302 +0530
BLUE,blue,c,b,13,1,3,b,1,0.4359451,None,3,1,13,2,25.5015185,,,,,,,,,25.4888089,25.5015185,26.5015985,26.4849666,26.4849666,26.9353238,b,1,0.4359451,None,,,,,,,,1001,1,21,Man,2025-08-24_18h58.14.180,StroopEffect,,2025.1.1,60.02844148,2025-08-24 18h58.25.110302 +0530
RED,red,c,r,15,3,3,r,1,0.4087709,None,3,3,15,1,28.5681291,,,,,,,,,28.5538429,28.5681291,29.5680551,29.5514947,29.5514947,29.9687145,r,1,0.4087709,None,,,,,,,,1001,1,21,Man,2025-08-24_18h58.14.180,StroopEffect,,2025.1.1,60.02844148,2025-08-24 18h58.25.110302 +0530
RED,red,c,r,17,1,4,r,1,0.4014725,None,4,1,17,1,31.3016894,,,,,,,,,31.2897705,31.3016894,32.3011523,32.3011523,32.3011523,32.7184918,r,1,0.4014725,None,,,,,,,,1001,1,21,Man,2025-08-24_18h58.14.180,StroopEffect,,2025.1.1,60.02844148,2025-08-24 18h58.25.110302 +0530
BLUE,blue,c,b,19,3,4,b,1,0.4076618,None,4,3,19,2,34.4845373,,,,,,,,,34.4730779,34.4845373,35.4849301,35.4681236,35.4681236,35.885472,b,1,0.4076618,None,,,,,,,,1001,1,21,Man,2025-08-24_18h58.14.180,StroopEffect,,2025.1.1,60.02844148,2025-08-24 18h58.25.110302 +0530
BLUE,blue,c,b,20,0,5,b,1,0.4192159,None,5,0,20,2,35.9014838,,,,,,,,,35.8863813,35.9014838,36.9013429,36.8849523,36.8849523,37.3185123,b,1,0.4192159,None,,,,,,,,1001,1,21,Man,2025-08-24_18h58.14.180,StroopEffect,,2025.1.1,60.02844148,2025-08-24 18h58.25.110302 +0530
RED,red,c,r,23,3,5,r,1,0.7462203,None,5,3,23,1,40.8181348,,,,,,,,,40.8062696,40.8181348,41.8181892,41.8014584,41.8014584,42.551966,r,1,0.7462203,None,,,,,,,,1001,1,21,Man,2025-08-24_18h58.14.180,StroopEffect,,2025.1.1,60.02844148,2025-08-24 18h58.25.110302 +0530
BLUE,blue,c,b,25,1,6,b,1,0.3071992,None,6,1,25,2,43.9010722,,,,,,,,,43.8900884,43.9010722,44.9017098,44.8844407,44.8844407,45.2021474,b,1,0.3071992,None,,,,,,,,1001,1,21,Man,2025-08-24_18h58.14.180,StroopEffect,,2025.1.1,60.02844148,2025-08-24 18h58.25.110302 +0530
RED,red,c,r,27,3,6,r,1,0.5038375,None,6,3,27,1,47.0178279,,,,,,,,,47.0062768,47.0178279,48.0177968,48.0012222,48.0012222,48.5185519,r,1,0.5038375,None,,,,,,,,1001,1,21,Man,2025-08-24_18h58.14.180,StroopEffect,,2025.1.1,60.02844148,2025-08-24 18h58.25.110302 +0530
RED,red,c,r,28,0,7,r,1,0.6968943,None,7,0,28,1,48.5343801,,,,,,,,,48.5194364,48.5343801,49.5343136,49.5177715,49.5177715,50.2183751,r,1,0.6968943,None,,,,,,,,1001,1,21,Man,2025-08-24_18h58.14.180,StroopEffect,,2025.1.1,60.02844148,2025-08-24 18h58.25.110302 +0530
BLUE,blue,c,b,30,2,7,b,1,0.471751,None,7,2,30,2,51.6178652,,,,,,,,,51.6066999,51.6178652,52.6179021,52.6179021,52.6179021,53.1016563,b,1,0.471751,None,,,,,,,,1001,1,21,Man,2025-08-24_18h58.14.180,StroopEffect,,2025.1.1,60.02844148,2025-08-24 18h58.25.110302 +0530
RED,red,c,r,32,0,8,r,1,0.4943775,None,8,0,32,1,54.5511152,,,,,,,,,54.53976,54.5511152,55.5509353,55.5509353,55.5509353,56.0510489,r,1,0.4943775,None,,,,,,,,1001,1,21,Man,2025-08-24_18h58.14.180,StroopEffect,,2025.1.1,60.02844148,2025-08-24 18h58.25.110302 +0530
BLUE,blue,c,b,33,1,8,b,1,0.3131886,None,8,1,33,2,56.0675335,,,,,,,,,56.054831,56.0675335,57.0673811,57.050792,57.050792,57.3677455,b,1,0.3131886,None,,,,,,,,1001,1,21,Man,2025-08-24_18h58.14.180,StroopEffect,,2025.1.1,60.02844148,2025-08-24 18h58.25.110302 +0530
RED,red,c,r,38,2,9,r,1,0.5923583,None,9,2,38,1,63.9342721,,,,,,,,,63.9191143,63.9342721,64.9342105,64.9174147,64.9174147,65.5181202,r,1,0.5923583,None,,,,,,,,1001,1,21,Man,2025-08-24_18h58.14.180,StroopEffect,,2025.1.1,60.02844148,2025-08-24 18h58.25.110302 +0530
BLUE,blue,c,b,39,3,9,b,1,0.3702294,None,9,3,39,2,65.5339011,,,,,,,,,65.522395,65.5339011,66.5339246,66.5173867,66.5173867,66.9013412,b,1,0.3702294,None,,,,,,,,1001,1,21,Man,2025-08-24_18h58.14.180,StroopEffect,,2025.1.1,60.02844148,2025-08-24 18h58.25.110302 +0530
BLUE,red,i,r,0,0,0,b,0,0.871361,None,0,0,0,3,3.2666409,,,,,,,,,3.263698,3.2666409,4.2689784,4.2689784,4.2689784,5.1529269,b,0,0.871361,None,,,,,,,,1001,1,21,Man,2025-08-24_18h58.14.180,StroopEffect,,2025.1.1,60.02844148,2025-08-24 18h58.25.110302 +0530
RED,blue,i,b,1,1,0,r,0,0.7070165,None,0,1,1,0,5.1689078,,,,,,,,,5.1602915,5.1689078,6.1690751,6.1524596,6.1524596,6.8691358,r,0,0.7070165,None,,,,,,,,1001,1,21,Man,2025-08-24_18h58.14.180,StroopEffect,,2025.1.1,60.02844148,2025-08-24 18h58.25.110302 +0530
BLUE,red,i,r,5,1,1,r,1,0.3868398,None,1,1,5,3,11.9683723,,,,,,,,,11.9523916,11.9683723,12.9686426,12.9522556,12.9522556,13.3527151,r,1,0.3868398,None,,,,,,,,1001,1,21,Man,2025-08-24_18h58.14.180,StroopEffect,,2025.1.1,60.02844148,2025-08-24 18h58.25.110302 +0530
RED,blue,i,b,6,2,1,b,1,0.9337919,None,1,2,6,0,13.3687412,,,,,,,,,13.3570048,13.3687412,14.3689073,14.3519668,14.3519668,15.3025856,b,1,0.9337919,None,,,,,,,,1001,1,21,Man,2025-08-24_18h58.14.180,StroopEffect,,2025.1.1,60.02844148,2025-08-24 18h58.25.110302 +0530
RED,blue,i,b,9,1,2,r,0,0.4009806,None,2,1,9,0,18.5186063,,,,,,,,,18.506939,18.5186063,19.5186588,19.5021359,19.5021359,19.9194016,r,0,0.4009806,None,,,,,,,,1001,1,21,Man,2025-08-24_18h58.14.180,StroopEffect,,2025.1.1,60.02844148,2025-08-24 18h58.25.110302 +0530
BLUE,red,i,r,11,3,2,b,0,0.5199793,None,2,3,11,3,21.7517322,,,,,,,,,21.7394846,21.7517322,22.7519545,22.7351386,22.7351386,23.2691948,b,0,0.5199793,None,,,,,,,,1001,1,21,Man,2025-08-24_18h58.14.180,StroopEffect,,2025.1.1,60.02844148,2025-08-24 18h58.25.110302 +0530
RED,blue,i,b,12,0,3,b,1,1.1904231,None,3,0,12,0,23.2851719,,,,,,,,,23.2736103,23.2851719,24.2847118,24.2847118,24.2847118,25.48547,b,1,1.1904231,None,,,,,,,,1001,1,21,Man,2025-08-24_18h58.14.180,StroopEffect,,2025.1.1,60.02844148,2025-08-24 18h58.25.110302 +0530
BLUE,red,i,r,14,2,3,r,1,0.6020275,None,3,2,14,3,26.9521028,,,,,,,,,26.9357161,26.9521028,27.9517341,27.9352376,27.9352376,28.5517011,r,1,0.6020275,None,,,,,,,,1001,1,21,Man,2025-08-24_18h58.14.180,StroopEffect,,2025.1.1,60.02844148,2025-08-24 18h58.25.110302 +0530
BLUE,red,i,r,16,0,4,b,0,0.2998793,None,4,0,16,3,29.984763,,,,,,,,,29.9700653,29.984763,30.9849477,30.9684634,30.9684634,31.2856201,b,0,0.2998793,None,,,,,,,,1001,1,21,Man,2025-08-24_18h58.14.180,StroopEffect,,2025.1.1,60.02844148,2025-08-24 18h58.25.110302 +0530
RED,blue,i,b,18,2,4,b,1,0.7410193,None,4,2,18,0,32.7345899,,,,,,,,,32.7192703,32.7345899,33.7348762,33.7185434,33.7185434,34.4688801,b,1,0.7410193,None,,,,,,,,1001,1,21,Man,2025-08-24_18h58.14.180,StroopEffect,,2025.1.1,60.02844148,2025-08-24 18h58.25.110302 +0530
RED,blue,i,b,21,1,5,r,0,0.7438064,None,5,1,21,0,37.3346983,,,,,,,,,37.3212982,37.3346983,38.3347911,38.3183085,38.3183085,39.0687402,r,0,0.7438064,None,,,,,,,,1001,1,21,Man,2025-08-24_18h58.14.180,StroopEffect,,2025.1.1,60.02844148,2025-08-24 18h58.25.110302 +0530
BLUE,red,i,r,22,2,5,r,1,0.7241639,None,5,2,22,3,39.0848646,,,,,,,,,39.0733438,39.0848646,40.084689,40.0679591,40.0679591,40.8018482,r,1,0.7241639,None,,,,,,,,1001,1,21,Man,2025-08-24_18h58.14.180,StroopEffect,,2025.1.1,60.02844148,2025-08-24 18h58.25.110302 +0530
RED,blue,i,b,24,0,6,b,1,0.3182886,None,6,0,24,0,42.5680347,,,,,,,,,42.5528602,42.5680347,43.5679505,43.5514676,43.5514676,43.8852033,b,1,0.3182886,None,,,,,,,,1001,1,21,Man,2025-08-24_18h58.14.180,StroopEffect,,2025.1.1,60.02844148,2025-08-24 18h58.25.110302 +0530
BLUE,red,i,r,26,2,6,r,1,0.7930344,None,6,2,26,3,45.2178417,,,,,,,,,45.2031423,45.2178417,46.2180581,46.2011155,46.2011155,47.0016944,r,1,0.7930344,None,,,,,,,,1001,1,21,Man,2025-08-24_18h58.14.180,StroopEffect,,2025.1.1,60.02844148,2025-08-24 18h58.25.110302 +0530
RED,blue,i,b,29,1,7,b,1,0.3782808,None,7,1,29,0,50.234537,,,,,,,,,50.2193876,50.234537,51.2343465,51.2176796,51.2176796,51.6017423,b,1,0.3782808,None,,,,,,,,1001,1,21,Man,2025-08-24_18h58.14.180,StroopEffect,,2025.1.1,60.02844148,2025-08-24 18h58.25.110302 +0530
BLUE,red,i,r,31,3,7,r,1,0.424337,None,7,3,31,3,53.1177,,,,,,,,,53.1025796,53.1177,54.1174851,54.1007535,54.1007535,54.5349733,r,1,0.424337,None,,,,,,,,1001,1,21,Man,2025-08-24_18h58.14.180,StroopEffect,,2025.1.1,60.02844148,2025-08-24 18h58.25.110302 +0530
BLUE,red,i,r,34,2,8,r,1,0.3810037,None,8,2,34,3,57.3838445,,,,,,,,,57.3680716,57.3838445,58.3838928,58.3674676,58.3674676,58.7514107,r,1,0.3810037,None,,,,,,,,1001,1,21,Man,2025-08-24_18h58.14.180,StroopEffect,,2025.1.1,60.02844148,2025-08-24 18h58.25.110302 +0530
RED,blue,i,b,35,3,8,b,1,0.6355882,None,8,3,35,0,58.7677062,,,,,,,,,58.7556828,58.7677062,59.7673293,59.7673293,59.7673293,60.4177796,b,1,0.6355882,None,,,,,,,,1001,1,21,Man,2025-08-24_18h58.14.180,StroopEffect,,2025.1.1,60.02844148,2025-08-24 18h58.25.110302 +0530
BLUE,red,i,r,36,0,9,r,1,0.8185815,None,9,0,36,3,60.4337869,,,,,,,,,60.4214904,60.4337869,61.434257,61.4173551,61.4173551,62.251352,r,1,0.8185815,None,,,,,,,,1001,1,21,Man,2025-08-24_18h58.14.180,StroopEffect,,2025.1.1,60.02844148,2025-08-24 18h58.25.110302 +0530
RED,blue,i,b,37,1,9,b,1,0.662177,None,9,1,37,0,62.2672181,,,,,,,,,62.2559212,62.2672181,63.2676254,63.2507783,63.2507783,63.9181636,b,1,0.662177,None,,,,,,,,1001,1,21,Man,2025-08-24_18h58.14.180,StroopEffect,,2025.1.1,60.02844148,2025-08-24 18h58.25.110302 +0530
,,,,,,,,,,,,,,,,,,,,,,,,,,,,,,,,,,,,,,,,,,,,,,,,,,
,,,,,,,,,,,,,,,,,0.0013586,0.0044057,0.0044057,3.2543419,space,3.1549785,None,,,,,,,,,,,,,,,,,,1001,1,21,Man,2025-08-24_18h58.14.180,StroopEffect,,2025.1.1,60.02844148,2025-08-24 18h58.25.110302 +0530
,Accuracy,Reaction Time,,,,,,,,,,,,,,,,,,,,,,,,,,,,,,,,66.901551,66.91746,66.91746,67.8345269,space,0.9038132,None,1001,1,21,Man,2025-08-24_18h58.14.180,StroopEffect,,2025.1.1,60.02844148,2025-08-24 18h58.25.110302 +0530
Congruent,100%,0.5388,,,,,,,,,,,,,,,,,,,,,,,,,,,,,,,,,,,,,,,,,,,,,,,,
Incongruent,60%,0.6421,,,,,,,,,,,,,,,,,,,,,,,,,,,,,,,,,,,,,,,,,,,,,,,,
