word,colour,condition,correct_resp,thisN,thisTrialN,thisRepN,key_resp.keys,key_resp.corr,key_resp.rt,key_resp.duration,trials.thisRepN,trials.thisTrialN,trials.thisN,trials.thisIndex,thisRow.t,notes,Welcome.started,text_2.started,key_resp_2.started,Welcome.stopped,key_resp_2.keys,key_resp_2.rt,key_resp_2.duration,trial.started,fixation.started,fixation.stopped,key_resp.started,text_4.started,trial.stopped,trials.key_resp.keys,trials.key_resp.corr,trials.key_resp.rt,trials.key_resp.duration,Thank_You.started,text_3.started,key_resp_3.started,Thank_You.stopped,key_resp_3.keys,key_resp_3.rt,key_resp_3.duration,participant,session,Age,Gender,date,expName,expVersion,psychopyVersion,frameRate,expStart,
,,,,,,,,,,,,,,,,,0.0015039999998407438,0.0038371999999071704,0.0038371999999071704,0.3669846999998754,space,0.35212659999979223,None,,,,,,,,,,,,,,,,,,1003,001,21,Woman,2025-08-24_19h01.11.938,StroopEffect,,2025.1.1,60.04325516103713,2025-08-24 19h01.20.014850 +0530,
BLUE,blue,c,b,0,0,0,b,1,0.45721340000000055,None,0,0,0,2,0.37778119999984483,,,,,,,,,0.37556099999983417,0.37778119999984483,1.377145100000007,1.377145100000007,1.377145100000007,1.8438083999999435,b,1,0.45721340000000055,None,,,,,,,,1003,001,21,Woman,2025-08-24_19h01.11.938,StroopEffect,,2025.1.1,60.04325516103713,2025-08-24 19h01.20.014850 +0530,
RED,red,c,r,1,1,0,r,1,0.33549410000000535,None,0,1,1,1,1.8599063999999998,,,,,,,,,1.8473725999999715,1.8599063999999998,2.8604186999998547,2.8438316999997824,2.8438316999997824,3.194407599999977,r,1,0.33549410000000535,None,,,,,,,,1003,001,21,Woman,2025-08-24_19h01.11.938,StroopEffect,,2025.1.1,60.04325516103713,2025-08-24 19h01.20.014850 +0530,
RED,blue,i,b,2,2,0,r,0,0.5468379999999797,None,0,2,2,0,3.2103380999999445,,,,,,,,,3.1953318999999283,3.2103380999999445,4.210466499999939,4.193872499999998,4.193872499999998,4.7444066999998995,r,0,0.5468379999999797,None,,,,,,,,1003,001,21,Woman,2025-08-24_19h01.11.938,StroopEffect,,2025.1.1,60.04325516103713,2025-08-24 19h01.20.014850 +0530,
BLUE,red,i,r,3,3,0,b,0,0.6408165000000281,None,0,3,3,3,4.760356299999785,,,,,,,,,4.748588599999948,4.760356299999785,5.760296799999878,5.743671999999833,5.743671999999833,6.394359699999995,b,0,0.6408165000000281,None,,,,,,,,1003,001,21,Woman,2025-08-24_19h01.11.938,StroopEffect,,2025.1.1,60.04325516103713,2025-08-24 19h01.20.014850 +0530,
RED,red,c,r,4,0,1,r,1,0.9542289999999412,None,1,0,4,1,6.410293999999794,,,,,,,,,6.398398499999985,6.410293999999794,7.410421299999825,7.393604699999969,7.393604699999969,8.360896999999795,r,1,0.9542289999999412,None,,,,,,,,1003,001,21,Woman,2025-08-24_19h01.11.938,StroopEffect,,2025.1.1,60.04325516103713,2025-08-24 19h01.20.014850 +0530,
BLUE,red,i,r,5,1,1,r,1,0.7008375000000342,None,1,1,5,3,8.37675749999994,,,,,,,,,8.365344599999844,8.37675749999994,9.377153099999987,9.36022539999999,9.36022539999999,10.077753799999982,r,1,0.7008375000000342,None,,,,,,,,1003,001,21,Woman,2025-08-24_19h01.11.938,StroopEffect,,2025.1.1,60.04325516103713,2025-08-24 19h01.20.014850 +0530,
RED,blue,i,b,6,2,1,b,1,0.6744381000000885,None,1,2,6,0,10.093323299999838,,,,,,,,,10.082597599999872,10.093323299999838,11.093447099999821,11.07668909999984,11.07668909999984,11.760863699999845,b,1,0.6744381000000885,None,,,,,,,,1003,001,21,Woman,2025-08-24_19h01.11.938,StroopEffect,,2025.1.1,60.04325516103713,2025-08-24 19h01.20.014850 +0530,
BLUE,blue,c,b,7,3,1,b,1,0.3714010999999573,None,1,3,7,2,11.776590799999894,,,,,,,,,11.765268399999968,11.776590799999894,12.776640999999927,12.760227099999838,12.760227099999838,13.14415729999996,b,1,0.3714010999999573,None,,,,,,,,1003,001,21,Woman,2025-08-24_19h01.11.938,StroopEffect,,2025.1.1,60.04325516103713,2025-08-24 19h01.20.014850 +0530,
BLUE,blue,c,b,8,0,2,b,1,0.39077050000014424,None,2,0,8,2,13.16025159999981,,,,,,,,,13.14503929999978,13.16025159999981,14.160034300000007,14.143466399999852,14.143466399999852,14.54419629999984,b,1,0.39077050000014424,None,,,,,,,,1003,001,21,Woman,2025-08-24_19h01.11.938,StroopEffect,,2025.1.1,60.04325516103713,2025-08-24 19h01.20.014850 +0530,
RED,blue,i,b,9,1,2,b,1,0.3673245999998471,None,2,1,9,0,14.560205399999859,,,,,,,,,14.548535099999981,14.560205399999859,15.559802599999784,15.543667199999845,15.543667199999845,15.927104399999962,b,1,0.3673245999998471,None,,,,,,,,1003,001,21,Woman,2025-08-24_19h01.11.938,StroopEffect,,2025.1.1,60.04325516103713,2025-08-24 19h01.20.014850 +0530,
RED,red,c,r,10,2,2,r,1,0.2924117000000024,None,2,2,10,1,15.943180699999857,,,,,,,,,15.927983399999903,15.943180699999857,16.943211799999972,16.926605599999903,16.926605599999903,17.227091900000005,r,1,0.2924117000000024,None,,,,,,,,1003,001,21,Woman,2025-08-24_19h01.11.938,StroopEffect,,2025.1.1,60.04325516103713,2025-08-24 19h01.20.014850 +0530,
BLUE,red,i,r,11,3,2,r,1,0.3044397000001027,None,2,3,11,3,17.243316599999844,,,,,,,,,17.231153699999822,17.243316599999844,18.243227899999965,18.226491499999838,18.226491499999838,18.543332599999985,r,1,0.3044397000001027,None,,,,,,,,1003,001,21,Woman,2025-08-24_19h01.11.938,StroopEffect,,2025.1.1,60.04325516103713,2025-08-24 19h01.20.014850 +0530,
RED,red,c,r,12,0,3,r,1,0.3172831000001679,None,3,0,12,1,18.55962539999996,,,,,,,,,18.54557379999983,18.55962539999996,19.55970259999981,19.542865099999972,19.542865099999972,19.87668829999984,r,1,0.3172831000001679,None,,,,,,,,1003,001,21,Woman,2025-08-24_19h01.11.938,StroopEffect,,2025.1.1,60.04325516103713,2025-08-24 19h01.20.014850 +0530,
RED,blue,i,b,13,1,3,b,1,0.5638972000001559,None,3,1,13,0,19.892877999999882,,,,,,,,,19.877094499999885,19.892877999999882,20.892702199999803,20.876110299999937,20.876110299999937,21.442873599999984,b,1,0.5638972000001559,None,,,,,,,,1003,001,21,Woman,2025-08-24_19h01.11.938,StroopEffect,,2025.1.1,60.04325516103713,2025-08-24 19h01.20.014850 +0530,
BLUE,red,i,r,14,2,3,b,0,0.5660006000000521,None,3,2,14,3,21.459501199999977,,,,,,,,,21.444419399999788,21.459501199999977,22.459998599999835,22.442979499999865,22.442979499999865,23.01004789999979,b,0,0.5660006000000521,None,,,,,,,,1003,001,21,Woman,2025-08-24_19h01.11.938,StroopEffect,,2025.1.1,60.04325516103713,2025-08-24 19h01.20.014850 +0530,
BLUE,blue,c,b,15,3,3,b,1,0.9728036999999858,None,3,3,15,2,23.026191899999958,,,,,,,,,23.010761599999796,23.026191899999958,24.026223399999935,24.00966789999984,24.00966789999984,24.994286799999827,b,1,0.9728036999999858,None,,,,,,,,1003,001,21,Woman,2025-08-24_19h01.11.938,StroopEffect,,2025.1.1,60.04325516103713,2025-08-24 19h01.20.014850 +0530,
RED,red,c,r,16,0,4,r,1,0.32157970000002933,None,4,0,16,1,25.00947619999988,,,,,,,,,24.998231799999985,25.00947619999988,26.00983909999991,26.00983909999991,26.00983909999991,26.343827399999782,r,1,0.32157970000002933,None,,,,,,,,1003,001,21,Woman,2025-08-24_19h01.11.938,StroopEffect,,2025.1.1,60.04325516103713,2025-08-24 19h01.20.014850 +0530,
BLUE,red,i,r,17,1,4,r,1,1.1412639000000127,None,4,1,17,3,26.35972289999995,,,,,,,,,26.34793139999988,26.35972289999995,27.35977509999998,27.343002499999784,27.343002499999784,28.493472199999815,r,1,1.1412639000000127,None,,,,,,,,1003,001,21,Woman,2025-08-24_19h01.11.938,StroopEffect,,2025.1.1,60.04325516103713,2025-08-24 19h01.20.014850 +0530,
RED,blue,i,b,18,2,4,b,1,0.7697998999999527,None,4,2,18,0,28.509629399999994,,,,,,,,,28.49768539999991,28.509629399999994,29.5097303,29.49293859999989,29.49293859999989,30.277065300000004,b,1,0.7697998999999527,None,,,,,,,,1003,001,21,Woman,2025-08-24_19h01.11.938,StroopEffect,,2025.1.1,60.04325516103713,2025-08-24 19h01.20.014850 +0530,
BLUE,blue,c,b,19,3,4,b,1,0.3381184000002122,None,4,3,19,2,30.29289689999996,,,,,,,,,30.280674199999794,30.29289689999996,31.29318349999994,31.276447199999893,31.276447199999893,31.627073999999993,b,1,0.3381184000002122,None,,,,,,,,1003,001,21,Woman,2025-08-24_19h01.11.938,StroopEffect,,2025.1.1,60.04325516103713,2025-08-24 19h01.20.014850 +0530,
BLUE,blue,c,b,20,0,5,b,1,0.2778743999999733,None,5,0,20,2,31.643102899999803,,,,,,,,,31.62800519999996,31.643102899999803,32.642756799999916,32.62638659999993,32.62638659999993,32.91036159999999,b,1,0.2778743999999733,None,,,,,,,,1003,001,21,Woman,2025-08-24_19h01.11.938,StroopEffect,,2025.1.1,60.04325516103713,2025-08-24 19h01.20.014850 +0530,
RED,red,c,r,21,1,5,r,1,0.3343413000000055,None,5,1,21,1,32.92628489999993,,,,,,,,,32.914624399999866,32.92628489999993,33.926589799999874,33.909726899999896,33.909726899999896,34.260267099999965,r,1,0.3343413000000055,None,,,,,,,,1003,001,21,Woman,2025-08-24_19h01.11.938,StroopEffect,,2025.1.1,60.04325516103713,2025-08-24 19h01.20.014850 +0530,
BLUE,red,i,r,22,2,5,b,0,0.6085665000000517,None,5,2,22,3,34.276227099999915,,,,,,,,,34.264076799999884,34.276227099999915,35.276313699999946,35.259755399999904,35.259755399999904,35.87681899999984,b,0,0.6085665000000517,None,,,,,,,,1003,001,21,Woman,2025-08-24_19h01.11.938,StroopEffect,,2025.1.1,60.04325516103713,2025-08-24 19h01.20.014850 +0530,
RED,blue,i,b,23,3,5,b,1,1.294454099999939,None,5,3,23,0,35.89285729999983,,,,,,,,,35.880995499999926,35.89285729999983,36.89277599999991,36.87611549999997,36.87611549999997,38.17689919999998,b,1,1.294454099999939,None,,,,,,,,1003,001,21,Woman,2025-08-24_19h01.11.938,StroopEffect,,2025.1.1,60.04325516103713,2025-08-24 19h01.20.014850 +0530,
BLUE,red,i,r,24,0,6,r,1,0.4078865000001315,None,6,0,24,3,38.19293559999983,,,,,,,,,38.18105549999996,38.19293559999983,39.192722,39.17616329999987,39.17616329999987,39.59325939999985,r,1,0.4078865000001315,None,,,,,,,,1003,001,21,Woman,2025-08-24_19h01.11.938,StroopEffect,,2025.1.1,60.04325516103713,2025-08-24 19h01.20.014850 +0530,
RED,red,c,r,25,1,6,r,1,0.38901559999999336,None,6,1,25,1,39.6092979,,,,,,,,,39.597434399999884,39.6092979,40.60948469999994,40.59271139999987,40.59271139999987,40.99316769999996,r,1,0.38901559999999336,None,,,,,,,,1003,001,21,Woman,2025-08-24_19h01.11.938,StroopEffect,,2025.1.1,60.04325516103713,2025-08-24 19h01.20.014850 +0530,
BLUE,blue,c,b,26,2,6,b,1,0.3408827000000656,None,6,2,26,2,41.00914969999985,,,,,,,,,40.99779309999985,41.00914969999985,42.00933999999984,41.992614799999956,41.992614799999956,42.3432022999998,b,1,0.3408827000000656,None,,,,,,,,1003,001,21,Woman,2025-08-24_19h01.11.938,StroopEffect,,2025.1.1,60.04325516103713,2025-08-24 19h01.20.014850 +0530,
RED,blue,i,b,27,3,6,r,0,0.4055620000001454,None,6,3,27,0,42.35942699999987,,,,,,,,,42.347422699999925,42.35942699999987,43.35944499999982,43.342774299999974,43.342774299999974,43.76019039999983,r,0,0.4055620000001454,None,,,,,,,,1003,001,21,Woman,2025-08-24_19h01.11.938,StroopEffect,,2025.1.1,60.04325516103713,2025-08-24 19h01.20.014850 +0530,
RED,red,c,r,28,0,7,r,1,0.5028952000000118,None,7,0,28,1,43.776095799999894,,,,,,,,,43.761153999999806,43.776095799999894,44.77601189999996,44.77601189999996,44.77601189999996,45.29338639999992,r,1,0.5028952000000118,None,,,,,,,,1003,001,21,Woman,2025-08-24_19h01.11.938,StroopEffect,,2025.1.1,60.04325516103713,2025-08-24 19h01.20.014850 +0530,
BLUE,red,i,r,29,1,7,b,0,0.4637150000000929,None,7,1,29,3,45.30926119999981,,,,,,,,,45.29779819999999,45.30926119999981,46.30922239999995,46.292391699999826,46.292391699999826,46.76010219999989,b,0,0.4637150000000929,None,,,,,,,,1003,001,21,Woman,2025-08-24_19h01.11.938,StroopEffect,,2025.1.1,60.04325516103713,2025-08-24 19h01.20.014850 +0530,
BLUE,blue,c,b,30,2,7,b,1,0.5231226000000788,None,7,2,30,2,46.77580069999999,,,,,,,,,46.761129399999845,46.77580069999999,47.776080299999876,47.776080299999876,47.776080299999876,48.309889599999906,b,1,0.5231226000000788,None,,,,,,,,1003,001,21,Woman,2025-08-24_19h01.11.938,StroopEffect,,2025.1.1,60.04325516103713,2025-08-24 19h01.20.014850 +0530,
RED,blue,i,b,31,3,7,r,0,0.4110663999999815,None,7,3,31,0,48.326095399999986,,,,,,,,,48.31446119999987,48.326095399999986,49.32597129999999,49.30940799999985,49.30940799999985,49.726690399999825,r,0,0.4110663999999815,None,,,,,,,,1003,001,21,Woman,2025-08-24_19h01.11.938,StroopEffect,,2025.1.1,60.04325516103713,2025-08-24 19h01.20.014850 +0530,
RED,red,c,r,32,0,8,r,1,1.4569323000000622,None,8,0,32,1,49.7423988999999,,,,,,,,,49.72782999999981,49.7423988999999,50.742164999999886,50.72562219999986,50.72562219999986,52.192395199999964,r,1,1.4569323000000622,None,,,,,,,,1003,001,21,Woman,2025-08-24_19h01.11.938,StroopEffect,,2025.1.1,60.04325516103713,2025-08-24 19h01.20.014850 +0530,
RED,blue,i,b,33,1,8,b,1,0.7865338999999949,None,8,1,33,0,52.208812899999884,,,,,,,,,52.19283889999997,52.208812899999884,53.2087998999998,53.19222249999984,53.19222249999984,53.99316709999994,b,1,0.7865338999999949,None,,,,,,,,1003,001,21,Woman,2025-08-24_19h01.11.938,StroopEffect,,2025.1.1,60.04325516103713,2025-08-24 19h01.20.014850 +0530,
BLUE,red,i,r,34,2,8,r,1,1.1428298000000723,None,8,2,34,3,54.008999599999925,,,,,,,,,53.997344499999826,54.008999599999925,55.00897169999985,55.00897169999985,55.00897169999985,56.159729999999854,r,1,1.1428298000000723,None,,,,,,,,1003,001,21,Woman,2025-08-24_19h01.11.938,StroopEffect,,2025.1.1,60.04325516103713,2025-08-24 19h01.20.014850 +0530,
BLUE,blue,c,b,35,3,8,b,1,0.6112269999998716,None,8,3,35,2,56.17577869999991,,,,,,,,,56.16092679999997,56.17577869999991,57.17588379999984,57.15883569999983,57.15883569999983,57.77614749999998,b,1,0.6112269999998716,None,,,,,,,,1003,001,21,Woman,2025-08-24_19h01.11.938,StroopEffect,,2025.1.1,60.04325516103713,2025-08-24 19h01.20.014850 +0530,
BLUE,red,i,r,36,0,9,r,1,0.5707411000000775,None,9,0,36,3,57.792306800000006,,,,,,,,,57.77707049999981,57.792306800000006,58.79236579999997,58.77547339999978,58.77547339999978,59.3596728,r,1,0.5707411000000775,None,,,,,,,,1003,001,21,Woman,2025-08-24_19h01.11.938,StroopEffect,,2025.1.1,60.04325516103713,2025-08-24 19h01.20.014850 +0530,
BLUE,blue,c,b,37,1,9,b,1,0.4422884000000522,None,9,1,37,2,59.3756042,,,,,,,,,59.36060479999992,59.3756042,60.37550109999984,60.35902409999994,60.35902409999994,60.80973979999999,b,1,0.4422884000000522,None,,,,,,,,1003,001,21,Woman,2025-08-24_19h01.11.938,StroopEffect,,2025.1.1,60.04325516103713,2025-08-24 19h01.20.014850 +0530,
RED,blue,i,b,38,2,9,b,1,0.522868600000038,None,9,2,38,0,60.82551239999998,,,,,,,,,60.81419559999995,60.82551239999998,61.825644899999816,61.808972899999844,61.808972899999844,62.342835399999785,b,1,0.522868600000038,None,,,,,,,,1003,001,21,Woman,2025-08-24_19h01.11.938,StroopEffect,,2025.1.1,60.04325516103713,2025-08-24 19h01.20.014850 +0530,
RED,red,c,r,39,3,9,r,1,0.4677009000001817,None,9,3,39,1,62.35892409999997,,,,,,,,,62.34371639999995,62.35892409999997,63.358917899999824,63.3420501999999,63.3420501999999,63.82594589999985,r,1,0.4677009000001817,None,,,,,,,,1003,001,21,Woman,2025-08-24_19h01.11.938,StroopEffect,,2025.1.1,60.04325516103713,2025-08-24 19h01.20.014850 +0530,
,,,,,,,,,,,,,,,,,,,,,,,,,,,,,,,,,,63.82620309999993,63.842079099999864,63.842079099999864,64.5924184999999,space,0.7388106999999309,None,1003,001,21,Woman,2025-08-24_19h01.11.938,StroopEffect,,2025.1.1,60.04325516103713,2025-08-24 19h01.20.014850 +0530,
